standard,domain,key,value
adam,aes,id_col,USUBJID
adam,aes,stdt_col,ASTDT
adam,aes,endt_col,AENDT
adam,aes,stdy_col,ASTDY
adam,aes,endy_col,AENDY
adam,aes,aeterm_col,AETERM
adam,aes,decod_col,AEDECOD
adam,aes,bodsys_col,AEBODSYS
adam,aes,severity_col,AESEV
adam,dm,id_col,USUBJID
adam,dm,reference_date_col,TRTSDT
adam,dm,treatment_col,TRT01P
adam,labs,id_col,USUBJID
adam,labs,visit_col,AVISIT
adam,labs,visit_order_col,AVISITN
adam,labs,dt_col,ADT
adam,labs,dy_col,ADY
adam,labs,result_col,AVAL
